H GaussMeter (Oe),Mx (emu)
-5.700495,6.90E-04
129.421324,1.34E-03
208.652857,1.62E-03
294.927612,1.92E-03
391.835485,2.24E-03
492.637272,2.57E-03
595.651772,2.89E-03
693.812874,3.21E-03
798.412438,3.52E-03
900.428764,3.82E-03
1004.706612,4.12E-03
1215.220947,4.69E-03
1421.606674,5.26E-03
1632.51561,5.82E-03
1833.005524,6.35E-03
2041.971649,6.87E-03
2359.09375,7.63E-03
2669.197449,8.38E-03
2980.518677,9.04E-03
3285.146515,9.70E-03
3584.509796,1.03E-02
3881.198486,1.09E-02
4179.143372,1.15E-02
4476.587097,1.21E-02
4771.507385,1.26E-02
5073.792786,1.31E-02
5469.921264,1.37E-02
5874.196899,1.44E-02
6273.359253,1.49E-02
6676.890991,1.55E-02
7068.84729,1.60E-02
7462.947754,1.65E-02
7851.83606,1.69E-02
8234.748657,1.73E-02
8633.6427,1.76E-02
9018.510132,1.79E-02
9488.619873,1.83E-02
9955.571899,1.86E-02
10436.524414,1.88E-02
10899.081787,1.91E-02
11366.319214,1.93E-02
11833.623413,1.95E-02
12290.681763,1.97E-02
12751.703491,1.99E-02
13206.035156,2.00E-02
13657.544434,2.02E-02
14593.606323,2.04E-02
15494.135376,2.05E-02
16445.297852,2.07E-02
17374.164307,2.07E-02
18322.816406,2.06E-02
19190.249756,2.04E-02
20136.665772,2.01E-02
20129.340576,2.01E-02
19319.286865,2.04E-02
18531.649414,2.06E-02
17766.110596,2.07E-02
16896.148437,2.07E-02
16047.569336,2.06E-02
15220.5979,2.05E-02
14336.905518,2.03E-02
13902.918457,2.02E-02
13472.176636,2.01E-02
13028.065308,1.99E-02
12578.880737,1.98E-02
12104.22876,1.96E-02
11644.336914,1.94E-02
11175.857666,1.92E-02
10703.429687,1.89E-02
10227.725586,1.87E-02
9745.950683,1.84E-02
9362.282226,1.81E-02
8970.605591,1.78E-02
8570.807007,1.75E-02
8174.337402,1.71E-02
7780.552978,1.67E-02
7373.661194,1.63E-02
6972.569702,1.58E-02
6567.804993,1.53E-02
6158.187317,1.47E-02
5751.555054,1.41E-02
5447.031983,1.36E-02
5147.070435,1.31E-02
4844.576843,1.26E-02
4537.161987,1.21E-02
4233.78125,1.15E-02
3926.844665,1.09E-02
3614.440185,1.03E-02
3294.873688,9.63E-03
2977.268311,8.92E-03
2649.89035,8.19E-03
2432.671326,7.69E-03
2219.045532,7.17E-03
2000.8927,6.66E-03
1785.220505,6.11E-03
1560.588974,5.54E-03
1450.692703,5.22E-03
1341.276672,4.92E-03
1227.497711,4.63E-03
1111.327743,4.31E-03
995.264526,3.97E-03
877.51709,3.63E-03
764.408051,3.29E-03
648.043465,2.97E-03
547.329491,2.65E-03
388.516884,2.14E-03
197.379601,1.52E-03
115.460517,1.24E-03
14.045349,8.22E-04
-97.991397,8.69E-05
-219.38598,-6.21E-04
-331.656422,-1.19E-03
-447.914753,-1.60E-03
-561.123528,-1.98E-03
-674.227226,-2.33E-03
-785.305038,-2.68E-03
-1011.300415,-3.35E-03
-1230.258408,-3.98E-03
-1451.926483,-4.58E-03
-1667.252762,-5.16E-03
-1883.803894,-5.71E-03
-2209.931763,-6.55E-03
-2532.370026,-7.35E-03
-2853.682434,-8.09E-03
-3168.045258,-8.80E-03
-3479.150726,-9.45E-03
-3782.907654,-1.01E-02
-4089.413696,-1.07E-02
-4392.695251,-1.13E-02
-4697.941467,-1.18E-02
-5002.563293,-1.24E-02
-5405.601135,-1.31E-02
-5823.980469,-1.37E-02
-6234.926636,-1.43E-02
-6642.767578,-1.49E-02
-7043.737305,-1.54E-02
-7446.521728,-1.59E-02
-7849.441467,-1.63E-02
-8245.891113,-1.68E-02
-8647.355469,-1.71E-02
-9042.598755,-1.75E-02
-9534.99646,-1.79E-02
-10019.40686,-1.82E-02
-10505.2948,-1.85E-02
-10987.947266,-1.88E-02
-11472.329956,-1.90E-02
-11966.435058,-1.92E-02
-12450.201782,-1.94E-02
-12922.946045,-1.96E-02
-13391.754517,-1.98E-02
-13882.140381,-1.99E-02
-14869.638428,-2.01E-02
-15826.114746,-2.03E-02
-16828.0625,-2.04E-02
-17825.003906,-2.05E-02
-18793.034912,-2.05E-02
-19704.887451,-2.03E-02
-20675.643555,-2.00E-02
-20673.68872,-2.00E-02
-19840.12915,-2.03E-02
-19034.174561,-2.05E-02
-18241.070801,-2.06E-02
-17355.067139,-2.06E-02
-16493.422119,-2.05E-02
-15644.314575,-2.04E-02
-14745.822022,-2.02E-02
-14297.054809,-2.01E-02
-13860.590576,-2.00E-02
-13403.199951,-1.98E-02
-12945.459961,-1.97E-02
-12467.355591,-1.95E-02
-11988.536865,-1.93E-02
-11511.683472,-1.91E-02
-11032.540528,-1.89E-02
-10540.684692,-1.86E-02
-10056.084229,-1.83E-02
-9667.186524,-1.80E-02
-9272.368896,-1.77E-02
-8871.307495,-1.74E-02
-8468.287475,-1.71E-02
-8061.779175,-1.67E-02
-7652.175537,-1.62E-02
-7247.018494,-1.57E-02
-6837.273316,-1.52E-02
-6420.84729,-1.46E-02
-6012.978943,-1.40E-02
-5707.577637,-1.36E-02
-5398.562622,-1.31E-02
-5090.420085,-1.26E-02
-4789.642578,-1.21E-02
-4483.415344,-1.15E-02
-4170.434082,-1.09E-02
-3852.36792,-1.03E-02
-3534.639557,-9.61E-03
-3204.450379,-8.89E-03
-2882.63327,-8.14E-03
-2668.571381,-7.66E-03
-2448.686401,-7.14E-03
-2227.447907,-6.61E-03
-2010.36734,-6.06E-03
-1786.555908,-5.50E-03
-1672.848068,-5.20E-03
-1563.52385,-4.90E-03
-1451.443481,-4.59E-03
-1335.702606,-4.27E-03
-1221.515884,-3.96E-03
-1099.977265,-3.65E-03
-983.685883,-3.31E-03
-868.885056,-2.97E-03
-769.163986,-2.65E-03
-617.567513,-2.15E-03
-422.935615,-1.53E-03
-337.937477,-1.23E-03
-240.727629,-7.80E-04
-124.205597,-4.09E-05
-3.717364,6.52E-04
113.345288,1.21E-03
224.243567,1.62E-03
340.681736,1.99E-03
450.164539,2.35E-03
565.272469,2.71E-03
787.091972,3.37E-03
1010.242905,4.01E-03
1229.424225,4.61E-03
1443.194778,5.21E-03
1657.965363,5.78E-03
1988.877121,6.60E-03
2309.707153,7.39E-03
2627.39563,8.13E-03
2938.388336,8.85E-03
3247.328797,9.50E-03
3554.718964,1.01E-02
3858.49588,1.07E-02
4158.4776,1.13E-02
4458.591797,1.19E-02
4761.17157,1.24E-02
5162.759766,1.31E-02
5578.636291,1.38E-02
5979.330627,1.44E-02
6385.290771,1.50E-02
6786.177673,1.55E-02
7179.216248,1.60E-02
7578.524048,1.64E-02
7974.832581,1.68E-02
8366.871826,1.72E-02
8753.263794,1.76E-02
9236.825317,1.80E-02
9715.566162,1.83E-02
10192.002319,1.86E-02
10666.755615,1.89E-02
11149.468262,1.91E-02
11624.710083,1.94E-02
12106.945068,1.95E-02
12559.901855,1.97E-02
13034.575683,1.99E-02
13500.758179,2.00E-02
14468.088989,2.03E-02
15398.03894,2.04E-02
16369.589966,2.06E-02
17368.434326,2.06E-02
18304.139404,2.06E-02
19185.353515,2.05E-02
20118.134277,2.01E-02
